SubjID,RunNumber,Feedback,Version,Counterbalance,TrialNumber,TrialOnset,ChoiceOnset,Condition,LeftGrid,RightGrid,CorrectAnswer,Response,Accuracy,RT
FED_20160520a_3T1,1,y,4,1,1,16.008304119110107,20.52549910545349,Easy,"[4, 6, 9, 12]","[6, 8, 9, 4]",2,1,0,1.9002370834350586
FED_20160520a_3T1,1,y,4,1,2,24.009253978729248,28.526527166366577,Easy,"[9, 7, 3, 2]","[3, 9, 7, 1]",1,1,1,2.166942834854126
FED_20160520a_3T1,1,y,4,1,3,32.01029109954834,36.52755808830261,Easy,"[8, 9, 12, 5]","[8, 9, 12, 2]",2,2,1,1.4668331146240234
FED_20160520a_3T1,1,y,4,1,4,40.01131820678711,44.52850699424744,Easy,"[2, 1, 6, 10]","[10, 6, 2, 8]",1,1,1,0.8834810256958008
FED_20160520a_3T1,1,y,4,1,5,48.01227307319641,52.52952814102173,Hard,"[3, 1, 4, 7, 6, 5, 8, 2]","[3, 5, 7, 6, 1, 8, 2, 9]",1,1,1,0.8001358509063721
FED_20160520a_3T1,1,y,4,1,6,56.01330614089966,60.5305871963501,Hard,"[5, 1, 3, 9, 7, 8, 2, 12]","[8, 5, 9, 1, 12, 3, 11, 10]",1,1,1,2.8836419582366943
FED_20160520a_3T1,1,y,4,1,7,64.01426005363464,68.56488418579102,Hard,"[10, 5, 6, 1, 9, 2, 4, 3]","[2, 3, 10, 4, 6, 9, 8, 7]",1,1,1,0.8001699447631836
FED_20160520a_3T1,1,y,4,1,8,72.01538014411926,76.53256916999817,Hard,"[7, 11, 8, 3, 10, 4, 12, 6]","[4, 10, 7, 12, 11, 6, 5, 2]",1,1,1,1.283383846282959
FED_20160520a_3T1,1,y,4,1,9,80.01629614830017,84.5168981552124,Hard,"[7, 12, 2, 1, 10, 9, 11, 3]","[3, 11, 2, 1, 12, 9, 7, 8]",1,1,1,0.9167578220367432
FED_20160520a_3T1,1,y,4,1,10,88.00065207481384,92.51793217658997,Hard,"[4, 11, 5, 6, 3, 10, 12, 7]","[11, 10, 5, 9, 12, 4, 6, 3]",2,2,1,1.2667908668518066
FED_20160520a_3T1,1,y,4,1,11,96.0016860961914,100.51890707015991,Hard,"[8, 7, 11, 10, 4, 3, 6, 12]","[8, 7, 11, 4, 10, 12, 3, 5]",1,1,1,0.666741132736206
FED_20160520a_3T1,1,y,4,1,12,104.00273299217224,108.51990413665771,Hard,"[2, 6, 5, 11, 3, 1, 10, 8]","[5, 3, 7, 11, 2, 6, 1, 10]",2,2,1,1.1501109600067139
FED_20160520a_3T1,1,y,4,1,13,112.00366401672363,116.52092218399048,Easy,"[5, 1, 9, 8]","[5, 9, 8, 3]",1,1,1,1.0501148700714111
FED_20160520a_3T1,1,y,4,1,14,120.0046911239624,124.52196907997131,Easy,"[3, 6, 12, 8]","[6, 8, 12, 9]",1,1,1,1.0667920112609863
FED_20160520a_3T1,1,y,4,1,15,128.00572204589844,132.52291107177734,Easy,"[5, 9, 8, 6]","[9, 5, 8, 12]",1,1,1,0.9335711002349854
FED_20160520a_3T1,1,y,4,1,16,136.00667905807495,140.52394318580627,Easy,"[2, 12, 10, 7]","[10, 7, 12, 3]",1,1,1,0.8834688663482666
FED_20160520a_3T1,1,y,4,1,17,160.0097529888153,164.52697706222534,Hard,"[8, 6, 10, 5, 11, 2, 12, 9]","[11, 8, 12, 6, 10, 2, 4, 1]",1,1,1,0.7001171112060547
FED_20160520a_3T1,1,y,4,1,18,168.01071119308472,172.52797198295593,Hard,"[11, 12, 4, 9, 8, 7, 6, 5]","[7, 4, 6, 5, 8, 9, 10, 2]",1,1,1,0.9667561054229736
FED_20160520a_3T1,1,y,4,1,19,176.0117630958557,180.5290071964264,Hard,"[11, 4, 5, 8, 6, 10, 9, 7]","[11, 4, 7, 8, 9, 10, 5, 3]",1,1,1,2.5335168838500977
FED_20160520a_3T1,1,y,4,1,20,184.01279616355896,188.52990818023682,Hard,"[8, 11, 1, 7, 2, 12, 3, 9]","[11, 7, 4, 8, 12, 6, 2, 1]",2,2,1,1.6336169242858887
FED_20160520a_3T1,1,y,4,1,21,192.01378297805786,196.5309751033783,Easy,"[9, 4, 5, 10]","[7, 5, 4, 9]",2,2,1,1.5835058689117432
FED_20160520a_3T1,1,y,4,1,22,200.0147361755371,204.56531620025635,Easy,"[11, 4, 5, 10]","[10, 11, 4, 8]",1,1,1,0.8667168617248535
FED_20160520a_3T1,1,y,4,1,23,208.01576399803162,212.5330309867859,Easy,"[9, 2, 8, 3]","[9, 3, 2, 7]",1,1,1,0.9667630195617676
FED_20160520a_3T1,1,y,4,1,24,216.0001301765442,220.51732301712036,Easy,"[3, 12, 7, 6]","[7, 12, 1, 3]",2,2,1,0.9501450061798096
FED_20160520a_3T1,1,y,4,1,25,224.00114798545837,228.51834297180176,Easy,"[3, 11, 7, 1]","[11, 3, 7, 5]",1,1,1,0.716778039932251
FED_20160520a_3T1,1,y,4,1,26,232.00212216377258,236.51936602592468,Easy,"[12, 6, 5, 3]","[5, 3, 6, 7]",1,1,1,0.8833451271057129
FED_20160520a_3T1,1,y,4,1,27,240.00314497947693,244.52040100097656,Easy,"[5, 1, 11, 8]","[11, 5, 1, 6]",1,1,1,0.8667590618133545
FED_20160520a_3T1,1,y,4,1,28,248.00416016578674,252.5213520526886,Easy,"[12, 4, 6, 2]","[4, 2, 12, 10]",1,1,1,0.8834819793701172
FED_20160520a_3T1,1,y,4,1,29,256.0051941871643,260.5223820209503,Hard,"[4, 6, 7, 2, 8, 11, 3, 10]","[3, 7, 2, 6, 5, 8, 4, 11]",2,2,1,1.2834751605987549
FED_20160520a_3T1,1,y,4,1,30,264.0061421394348,268.5234410762787,Hard,"[5, 6, 1, 12, 7, 3, 11, 8]","[3, 7, 6, 5, 1, 12, 10, 11]",2,2,1,1.8002040386199951
FED_20160520a_3T1,1,y,4,1,31,272.02383613586426,276.524423122406,Hard,"[3, 2, 7, 8, 4, 5, 1, 10]","[4, 7, 9, 2, 6, 8, 3, 5]",2,2,1,1.1501178741455078
FED_20160520a_3T1,1,y,4,1,32,280.0082230567932,284.5254211425781,Hard,"[4, 5, 8, 3, 11, 7, 12, 6]","[11, 3, 4, 9, 8, 5, 12, 7]",2,2,1,2.2002339363098145
FED_20160520a_3T1,1,y,4,1,33,304.01117300987244,308.5285201072693,Easy,"[6, 1, 8, 2]","[6, 8, 1, 4]",1,1,1,0.7333018779754639
FED_20160520a_3T1,1,y,4,1,34,312.012225151062,316.52948808670044,Easy,"[12, 2, 6, 4]","[6, 12, 2, 3]",2,2,1,1.18345308303833
FED_20160520a_3T1,1,y,4,1,35,320.01325702667236,324.5304841995239,Easy,"[6, 11, 5, 7]","[6, 11, 5, 1]",1,1,1,0.7334117889404297
FED_20160520a_3T1,1,y,4,1,36,328.014279127121,332.53146600723267,Easy,"[5, 11, 1, 9]","[11, 1, 5, 2]",2,2,1,0.9668431282043457
FED_20160520a_3T1,1,y,4,1,37,336.0152339935303,340.5323820114136,Hard,"[7, 2, 12, 8, 1, 11, 10, 9]","[8, 6, 2, 12, 11, 1, 7, 10]",2,,0,
FED_20160520a_3T1,1,y,4,1,38,344.0162670612335,348.5168581008911,Hard,"[4, 10, 1, 7, 5, 11, 3, 8]","[8, 1, 11, 4, 5, 10, 3, 6]",1,1,1,1.3167259693145752
FED_20160520a_3T1,1,y,4,1,39,352.0006151199341,356.51781702041626,Hard,"[11, 7, 6, 3, 10, 12, 8, 1]","[8, 10, 3, 11, 12, 7, 6, 4]",2,2,1,1.000157117843628
FED_20160520a_3T1,1,y,4,1,40,360.0016510486603,364.5188400745392,Hard,"[11, 6, 4, 7, 5, 8, 12, 3]","[8, 11, 5, 6, 9, 7, 10, 4]",2,2,1,1.0335040092468262
FED_20160520a_3T1,1,y,4,1,41,368.0026330947876,372.5198850631714,Hard,"[2, 7, 10, 9, 11, 5, 8, 6]","[8, 11, 10, 1, 2, 5, 9, 7]",2,2,1,0.8334829807281494
FED_20160520a_3T1,1,y,4,1,42,376.0036270618439,380.5209159851074,Hard,"[11, 7, 5, 4, 8, 10, 9, 6]","[5, 11, 8, 6, 7, 10, 1, 12]",1,1,1,1.5834641456604004
FED_20160520a_3T1,1,y,4,1,43,384.00467920303345,388.5219111442566,Hard,"[3, 5, 10, 1, 4, 11, 9, 6]","[4, 10, 7, 8, 3, 5, 11, 1]",2,2,1,0.8500790596008301
FED_20160520a_3T1,1,y,4,1,44,392.00568199157715,396.52287316322327,Hard,"[4, 6, 12, 9, 5, 3, 2, 1]","[12, 10, 4, 5, 3, 6, 9, 11]",2,2,1,1.3835608959197998
FED_20160520a_3T1,1,y,4,1,45,400.0067310333252,404.52390217781067,Easy,"[9, 12, 2, 1]","[12, 1, 2, 11]",1,1,1,0.7834758758544922
FED_20160520a_3T1,1,y,4,1,46,408.00759410858154,412.52491903305054,Easy,"[4, 6, 9, 7]","[9, 6, 4, 10]",2,2,1,0.7833869457244873
FED_20160520a_3T1,1,y,4,1,47,416.0086569786072,420.5259470939636,Easy,"[3, 7, 11, 6]","[6, 11, 7, 10]",1,1,1,0.6167008876800537
FED_20160520a_3T1,1,y,4,1,48,424.0097031593323,428.52680015563965,Easy,"[10, 8, 9, 12]","[8, 9, 10, 3]",2,2,1,1.1336238384246826
