SubjID,RunNumber,Feedback,Version,Counterbalance,TrialNumber,TrialOnset,ChoiceOnset,Condition,LeftGrid,RightGrid,CorrectAnswer,Response,Accuracy,RT
KAN_EvDB_20150130,2,y,4,2,1,16.01471710205078,20.523391008377075,Hard,"[5, 8, 6, 7, 1, 4, 10, 11]","[10, 8, 7, 6, 11, 5, 1, 2]",1,1,1,1.4556260108947754
KAN_EvDB_20150130,2,y,4,2,2,24.00372815132141,28.527354955673218,Hard,"[10, 11, 8, 7, 12, 9, 4, 5]","[7, 10, 8, 12, 9, 4, 3, 11]",2,1,0,1.2566630840301514
KAN_EvDB_20150130,2,y,4,2,3,32.010409116744995,36.532546043395996,Hard,"[4, 3, 9, 6, 10, 7, 2, 12]","[4, 3, 6, 1, 9, 5, 10, 7]",2,2,1,2.1793129444122314
KAN_EvDB_20150130,2,y,4,2,4,40.01553702354431,44.52163600921631,Hard,"[11, 9, 1, 2, 6, 7, 5, 10]","[6, 10, 11, 1, 7, 5, 9, 12]",1,1,1,0.857367992401123
KAN_EvDB_20150130,2,y,4,2,5,48.00486898422241,52.529173135757446,Easy,"[1, 4, 5, 8]","[5, 1, 3, 4]",2,2,1,1.1720328330993652
KAN_EvDB_20150130,2,y,4,2,6,56.010730028152466,60.5334210395813,Easy,"[8, 3, 1, 5]","[1, 12, 8, 3]",2,2,1,0.7545878887176514
KAN_EvDB_20150130,2,y,4,2,7,64.01646208763123,68.52259993553162,Easy,"[8, 2, 10, 9]","[9, 8, 10, 1]",1,2,0,2.228760004043579
KAN_EvDB_20150130,2,y,4,2,8,72.00542998313904,76.51431202888489,Easy,"[8, 11, 3, 1]","[11, 8, 3, 10]",1,2,0,2.5609519481658936
KAN_EvDB_20150130,2,y,4,2,9,80.01139092445374,84.51792407035828,Easy,"[10, 9, 4, 6]","[10, 9, 5, 4]",2,2,1,0.9383740425109863
KAN_EvDB_20150130,2,y,4,2,10,88.00110101699829,92.52330303192139,Easy,"[2, 10, 12, 3]","[3, 2, 12, 8]",1,1,1,1.0560851097106934
KAN_EvDB_20150130,2,y,4,2,11,96.00651407241821,100.52920198440552,Easy,"[1, 6, 12, 4]","[6, 1, 12, 2]",1,1,1,1.0070531368255615
KAN_EvDB_20150130,2,y,4,2,12,104.01236891746521,108.51973915100098,Easy,"[12, 10, 8, 11]","[8, 10, 11, 3]",1,1,1,0.7867507934570312
KAN_EvDB_20150130,2,y,4,2,13,112.00164103507996,116.5241539478302,Hard,"[2, 3, 10, 6, 1, 7, 9, 5]","[9, 2, 1, 6, 5, 7, 12, 8]",1,1,1,1.6257171630859375
KAN_EvDB_20150130,2,y,4,2,14,120.00731992721558,124.5300841331482,Hard,"[8, 6, 7, 2, 11, 9, 5, 12]","[5, 7, 8, 9, 6, 2, 12, 10]",1,1,1,1.4762208461761475
KAN_EvDB_20150130,2,y,4,2,15,128.01302313804626,132.52185797691345,Hard,"[11, 2, 8, 4, 5, 12, 6, 9]","[12, 2, 8, 4, 6, 11, 5, 7]",1,2,0,1.3550641536712646
KAN_EvDB_20150130,2,y,4,2,16,136.00240397453308,140.5253450870514,Hard,"[4, 12, 3, 6, 8, 7, 10, 9]","[9, 10, 3, 12, 7, 4, 6, 5]",1,1,1,1.6586658954620361
KAN_EvDB_20150130,2,y,4,2,17,160.00312399864197,164.52692794799805,Easy,"[6, 8, 7, 5]","[8, 2, 6, 7]",2,2,1,0.5694830417633057
KAN_EvDB_20150130,2,y,4,2,18,168.00902915000916,172.53183794021606,Easy,"[3, 8, 4, 7]","[8, 4, 3, 2]",1,1,1,0.8213691711425781
KAN_EvDB_20150130,2,y,4,2,19,176.01487708091736,180.52095794677734,Easy,"[3, 4, 12, 9]","[3, 4, 12, 6]",1,2,0,0.9220550060272217
KAN_EvDB_20150130,2,y,4,2,20,184.0039529800415,188.52940893173218,Easy,"[8, 1, 5, 12]","[8, 3, 5, 1]",2,2,1,1.5225121974945068
KAN_EvDB_20150130,2,y,4,2,21,192.00986003875732,196.53258395195007,Hard,"[10, 7, 9, 1, 8, 2, 3, 12]","[9, 1, 10, 12, 7, 2, 11, 6]",1,1,1,1.3912920951843262
KAN_EvDB_20150130,2,y,4,2,22,200.01573705673218,204.52169108390808,Hard,"[9, 8, 4, 10, 7, 11, 5, 1]","[11, 8, 1, 7, 10, 5, 12, 2]",1,1,1,1.0224440097808838
KAN_EvDB_20150130,2,y,4,2,23,208.00469994544983,212.5275490283966,Hard,"[11, 4, 5, 9, 2, 8, 7, 1]","[1, 4, 9, 11, 8, 2, 5, 3]",1,1,1,1.6423718929290771
KAN_EvDB_20150130,2,y,4,2,24,216.01069593429565,220.5175850391388,Hard,"[10, 4, 2, 5, 9, 6, 8, 11]","[5, 10, 8, 11, 6, 2, 9, 12]",1,1,1,1.6245720386505127
KAN_EvDB_20150130,2,y,4,2,25,224.00070595741272,228.52262496948242,Hard,"[6, 8, 4, 3, 7, 1, 10, 9]","[8, 6, 4, 5, 3, 1, 7, 2]",2,2,1,1.4414081573486328
KAN_EvDB_20150130,2,y,4,2,26,232.00574612617493,236.5284299850464,Hard,"[8, 2, 10, 9, 3, 6, 5, 4]","[8, 10, 6, 4, 9, 3, 11, 1]",1,1,1,1.6765761375427246
KAN_EvDB_20150130,2,y,4,2,27,240.01150608062744,244.5199999809265,Hard,"[11, 8, 9, 10, 3, 12, 5, 2]","[9, 12, 2, 5, 11, 3, 1, 4]",1,1,1,1.7738211154937744
KAN_EvDB_20150130,2,y,4,2,28,248.00058007240295,252.52340412139893,Hard,"[10, 2, 3, 6, 4, 5, 8, 11]","[3, 11, 4, 6, 10, 5, 12, 7]",1,1,1,1.8265039920806885
KAN_EvDB_20150130,2,y,4,2,29,256.0064330101013,260.5291500091553,Easy,"[8, 2, 9, 5]","[9, 2, 8, 3]",1,1,1,0.9221289157867432
KAN_EvDB_20150130,2,y,4,2,30,264.0124399662018,268.5183479785919,Easy,"[3, 1, 2, 10]","[2, 11, 1, 3]",2,2,1,1.45831298828125
KAN_EvDB_20150130,2,y,4,2,31,272.0014441013336,276.52512311935425,Easy,"[8, 3, 12, 2]","[12, 2, 3, 5]",1,1,1,1.1723740100860596
KAN_EvDB_20150130,2,y,4,2,32,280.0081739425659,284.53018593788147,Easy,"[12, 9, 10, 2]","[10, 12, 11, 9]",2,2,1,0.5368800163269043
KAN_EvDB_20150130,2,y,4,2,33,304.00824904441833,308.5310289859772,Hard,"[1, 11, 7, 2, 12, 5, 8, 4]","[6, 11, 1, 8, 7, 2, 5, 12]",2,2,1,1.508336067199707
KAN_EvDB_20150130,2,y,4,2,34,312.01404094696045,316.5200629234314,Hard,"[8, 9, 2, 3, 6, 12, 1, 7]","[3, 10, 12, 9, 6, 2, 8, 4]",2,2,1,1.4248921871185303
KAN_EvDB_20150130,2,y,4,2,35,320.00296998023987,324.5259020328522,Hard,"[9, 8, 5, 1, 12, 3, 10, 6]","[1, 7, 9, 3, 8, 10, 5, 12]",2,2,1,1.408078908920288
KAN_EvDB_20150130,2,y,4,2,36,328.0090820789337,332.53258299827576,Hard,"[7, 11, 2, 3, 8, 4, 1, 10]","[3, 2, 1, 11, 7, 4, 10, 5]",1,1,1,1.5913300514221191
KAN_EvDB_20150130,2,y,4,2,37,336.01576805114746,340.5208830833435,Easy,"[7, 2, 4, 9]","[7, 2, 4, 8]",1,1,1,0.9555509090423584
KAN_EvDB_20150130,2,y,4,2,38,344.0040650367737,348.5267961025238,Easy,"[1, 4, 8, 9]","[1, 9, 8, 2]",1,1,1,2.0273358821868896
KAN_EvDB_20150130,2,y,4,2,39,352.00989603996277,356.5180160999298,Easy,"[3, 11, 12, 8]","[11, 12, 3, 10]",2,2,1,0.8029279708862305
KAN_EvDB_20150130,2,y,4,2,40,360.01577711105347,364.5217881202698,Easy,"[8, 1, 7, 6]","[8, 6, 7, 9]",1,1,1,1.2401368618011475
KAN_EvDB_20150130,2,y,4,2,41,368.0048451423645,372.5276110172272,Easy,"[1, 9, 2, 5]","[8, 1, 9, 2]",2,2,1,1.0894920825958252
KAN_EvDB_20150130,2,y,4,2,42,376.0107841491699,380.53351497650146,Easy,"[10, 6, 4, 1]","[4, 5, 10, 6]",2,2,1,1.2740559577941895
KAN_EvDB_20150130,2,y,4,2,43,384.01661705970764,388.5232810974121,Easy,"[3, 11, 8, 1]","[1, 8, 11, 9]",1,1,1,1.5580389499664307
KAN_EvDB_20150130,2,y,4,2,44,392.00645112991333,396.5283839702606,Easy,"[3, 8, 6, 7]","[6, 7, 3, 10]",1,1,1,1.0058531761169434
KAN_EvDB_20150130,2,y,4,2,45,400.01154708862305,404.51755809783936,Hard,"[10, 9, 5, 11, 6, 2, 1, 7]","[2, 7, 6, 5, 1, 11, 12, 3]",1,1,1,1.3418338298797607
KAN_EvDB_20150130,2,y,4,2,46,408.0005450248718,412.5255651473999,Hard,"[3, 7, 1, 6, 9, 2, 5, 11]","[3, 4, 9, 2, 7, 10, 1, 6]",2,2,1,1.9249048233032227
KAN_EvDB_20150130,2,y,4,2,47,416.0063519477844,420.52922797203064,Hard,"[6, 5, 7, 2, 1, 9, 4, 8]","[5, 7, 8, 9, 2, 6, 4, 10]",1,1,1,1.1564860343933105
KAN_EvDB_20150130,2,y,4,2,48,424.0124189853668,428.51842999458313,Hard,"[7, 12, 11, 10, 3, 5, 9, 6]","[6, 5, 11, 9, 10, 12, 3, 1]",1,1,1,1.1898870468139648
